File: Aluminum tensile test.asc
Load	Stroke	Strain	Time
470	0.103600	0.057000	0.001667
470	0.103600	0.060000	0.006700
470	0.103600	0.059000	0.010167
470	0.103600	0.057000	0.013750
470	0.103600	0.058000	0.017167
471	0.103600	0.060000	0.021683
470	0.103600	0.059000	0.025650
470	0.103600	0.058000	0.029100
469	0.103600	0.058000	0.032550
470	0.103600	0.060000	0.035983
469	0.103600	0.058000	0.039933
469	0.103600	0.060000	0.045050
470	0.103600	0.060000	0.048483
470	0.103600	0.059000	0.051917
471	0.103600	0.059000	0.055950
470	0.103600	0.057000	0.059367
470	0.103600	0.059000	0.064600
470	0.103600	0.057000	0.068017
470	0.103600	0.060000	0.071467
470	0.103600	0.060000	0.075383
471	0.103600	0.058000	0.078800
471	0.103600	0.060000	0.083767
487	0.104100	0.054000	0.088300
511	0.104600	0.065000	0.093867
535	0.105200	0.067000	0.098967
552	0.105700	0.070000	0.104017
578	0.106400	0.074000	0.109633
587	0.106700	0.073000	0.114683
602	0.107200	0.078000	0.119183
629	0.107700	0.079000	0.123783
645	0.108200	0.084000	0.129617
667	0.108700	0.089000	0.133050
674	0.109000	0.091000	0.137017
688	0.109500	0.095000	0.141550
715	0.110000	0.096000	0.146583
730	0.110500	0.100000	0.150583
735	0.110700	0.102000	0.154583
760	0.111300	0.103000	0.159100
777	0.111800	0.110000	0.164550
803	0.112300	0.112000	0.169083
811	0.112800	0.111000	0.173250
824	0.113000	0.116000	0.176667
844	0.113500	0.121000	0.182633
866	0.114000	0.121000	0.186600
875	0.114300	0.126000	0.190567
893	0.114800	0.128000	0.194100
904	0.115300	0.130000	0.198833
923	0.115600	0.131000	0.202817
938	0.116100	0.134000	0.206233
948	0.116300	0.133000	0.210200
967	0.116800	0.136000	0.214917
986	0.117300	0.142000	0.219100
994	0.117600	0.141000	0.222533
1023	0.118100	0.153000	0.226533
1030	0.118400	0.152000	0.231117
1048	0.118900	0.154000	0.234633
1065	0.119400	0.156000	0.238783
1081	0.119600	0.160000	0.242233
1086	0.119900	0.162000	0.245667
1109	0.120400	0.162000	0.250817
1124	0.120900	0.166000	0.254250
1148	0.121200	0.170000	0.257750
1149	0.121400	0.170000	0.261800
1165	0.121900	0.172000	0.265817
1191	0.122400	0.177000	0.269850
1201	0.122700	0.180000	0.273883
1218	0.122900	0.181000	0.277450
1236	0.123400	0.187000	0.280917
1251	0.124000	0.187000	0.284917
1264	0.124200	0.190000	0.288400
1280	0.124700	0.191000	0.292433
1291	0.125000	0.196000	0.295917
1303	0.125200	0.200000	0.300567
1327	0.125700	0.205000	0.304033
1343	0.126200	0.209000	0.308033
1368	0.126500	0.218000	0.311500
1368	0.126700	0.212000	0.314967
1377	0.127300	0.214000	0.319017
1402	0.127500	0.221000	0.322467
1412	0.128000	0.222000	0.327050
1431	0.128500	0.227000	0.330500
1447	0.128800	0.231000	0.334567
1460	0.129300	0.233000	0.338000
1471	0.129500	0.239000	0.341467
1464	0.129800	0.230000	0.344917
1501	0.130300	0.244000	0.348350
1512	0.130600	0.249000	0.352917
1530	0.131100	0.250000	0.356583
1539	0.131300	0.254000	0.360050
1552	0.131800	0.257000	0.363483
1564	0.132100	0.259000	0.366900
1582	0.132600	0.267000	0.372083
1592	0.132800	0.266000	0.375500
1607	0.133400	0.275000	0.378933
1627	0.133600	0.280000	0.382933
1642	0.134100	0.282000	0.386900
1646	0.134400	0.287000	0.390350
1661	0.134900	0.291000	0.393767
1672	0.135100	0.293000	0.397750
1686	0.135600	0.298000	0.401250
1694	0.135900	0.302000	0.405433
1719	0.136400	0.314000	0.409583
1723	0.136700	0.315000	0.413017
1729	0.136900	0.320000	0.416467
1754	0.137400	0.327000	0.420450
1764	0.137900	0.334000	0.424433
1769	0.138200	0.338000	0.427883
1773	0.138400	0.340000	0.431300
1791	0.138900	0.346000	0.434733
1807	0.139400	0.360000	0.439283
1814	0.139700	0.363000	0.442717
1814	0.140000	0.368000	0.446700
1827	0.140200	0.373000	0.450133
1832	0.140700	0.379000	0.453550
1841	0.141200	0.392000	0.457667
1852	0.141500	0.400000	0.461117
1858	0.142000	0.409000	0.464550
1869	0.142200	0.416000	0.467967
1877	0.142500	0.420000	0.472067
1877	0.143000	0.432000	0.475500
1889	0.143300	0.445000	0.478933
1886	0.143500	0.453000	0.482350
1896	0.144000	0.463000	0.485767
1891	0.144300	0.470000	0.489883
1902	0.144800	0.483000	0.494083
1909	0.145300	0.493000	0.497517
1919	0.145500	0.506000	0.501533
1924	0.146100	0.526000	0.505733
1925	0.146300	0.542000	0.509167
1927	0.146600	0.556000	0.512600
1930	0.147100	0.566000	0.516050
1937	0.147300	0.584000	0.519500
1951	0.147800	0.604000	0.523550
1934	0.148100	0.608000	0.526967
1942	0.148300	0.623000	0.530450
1950	0.148800	0.640000	0.533883
1958	0.148800	0.658000	0.537333
1956	0.149600	0.672000	0.541583
1948	0.149600	0.680000	0.545050
1941	0.149600	0.691000	0.548467
1938	0.149600	0.697000	0.551917
1934	0.149600	0.697000	0.556017
1930	0.149600	0.698000	0.560883
1930	0.149600	0.701000	0.564350
1927	0.149600	0.702000	0.567933
1925	0.149600	0.702000	0.571417
1923	0.149600	0.706000	0.575433
1922	0.149600	0.705000	0.580417
1921	0.149600	0.706000	0.583883
1921	0.149600	0.707000	0.587350
1920	0.149600	0.708000	0.591367
1919	0.149600	0.709000	0.594833
1917	0.149600	0.709000	0.599750
1917	0.149600	0.710000	0.603183
1914	0.149600	0.709000	0.607183
1914	0.149600	0.710000	0.610733
1913	0.149900	0.691000	0.614183
1913	0.149900	0.691000	0.619100
1912	0.149900	0.646000	0.622567
1912	0.149900	0.066000	0.626583
1911	0.149900	0.085000	0.630033
1911	0.149900	0.070000	0.633483
1910	0.149900	0.166000	0.638400
1909	0.149900	0.212000	0.642383
1909	0.149900	0.242000	0.645833
1908	0.149900	0.260000	0.649383
1908	0.149900	0.235000	0.652817
1907	0.149900	0.163000	0.658250
1907	0.149900	0.097000	0.661867
1908	0.149900	0.048000	0.665283
1907	0.149900	-0.057000	0.668700
1905	0.149900	-0.138000	0.672117
1905	0.149900	-0.039000	0.677533
1905	0.149900	0.046000	0.680950
1904	0.149900	0.016000	0.684367
1905	0.149900	-0.050000	0.687783
1904	0.149900	-0.060000	0.691200
1905	0.149900	-0.102000	0.696483
1903	0.149900	-0.201000	0.699900
1903	0.149900	-0.202000	0.703317
1903	0.149900	-0.200000	0.706750
1903	0.149900	-0.201000	0.710167
1903	0.149900	-0.200000	0.715667
1903	0.149900	-0.202000	0.719083
1902	0.149900	-0.199000	0.722517
1903	0.149900	-0.200000	0.725933
1903	0.149900	-0.201000	0.729350
1903	0.149900	-0.199000	0.734867
1902	0.149900	-0.201000	0.738283
1902	0.149900	-0.201000	0.741967
1902	0.149900	-0.203000	0.745383
1923	0.150400	-0.205000	0.749950
1945	0.150900	-0.207000	0.753550
1969	0.151100	-0.199000	0.756983
1984	0.151400	-0.200000	0.760450
1981	0.151600	-0.205000	0.763900
2000	0.152100	-0.201000	0.769400
1978	0.152700	-0.204000	0.772833
1984	0.152900	-0.203000	0.776300
1987	0.153400	-0.205000	0.779750
1981	0.153700	-0.203000	0.783233
1990	0.154200	-0.203000	0.787467
1989	0.154400	-0.201000	0.791050
1986	0.154700	-0.203000	0.794500
1992	0.155200	-0.203000	0.797967
1993	0.155700	-0.201000	0.802533
1992	0.156000	-0.204000	0.805967
1993	0.156200	-0.203000	0.809600
2001	0.156500	-0.202000	0.813050
2001	0.157000	-0.200000	0.817067
2002	0.157500	-0.203000	0.821067
2003	0.157700	-0.200000	0.824500
2009	0.158200	-0.204000	0.827933
2001	0.158500	-0.204000	0.831567
2009	0.158800	-0.201000	0.835000
2007	0.159300	-0.202000	0.839000
2013	0.159800	-0.203000	0.842500
2016	0.160000	-0.199000	0.845983
2016	0.160300	-0.202000	0.850050
2026	0.160800	-0.202000	0.854100
2015	0.161000	-0.203000	0.857717
2023	0.161500	-0.200000	0.861200
2028	0.161800	-0.200000	0.864683
2017	0.162100	-0.203000	0.868167
2019	0.162600	-0.205000	0.872200
2023	0.163100	-0.204000	0.875683
2030	0.163300	-0.204000	0.879167
2031	0.163600	-0.200000	0.882733
2036	0.164100	-0.201000	0.886217
2035	0.164300	-0.202000	0.890300
2040	0.164800	-0.204000	0.893767
2032	0.165100	-0.205000	0.897800
2036	0.165400	-0.202000	0.901283
2048	0.165900	-0.202000	0.905383
2047	0.166400	-0.202000	0.908883
2037	0.166600	-0.200000	0.912383
2039	0.167100	-0.202000	0.916033
2053	0.167400	-0.201000	0.919550
2050	0.167900	-0.203000	0.923583
2037	0.168100	-0.204000	0.927067
2032	0.168400	-0.207000	0.930533
2045	0.168400	-0.201000	0.933983
2058	0.169200	-0.202000	0.937450
2060	0.169700	-0.202000	0.941633
2059	0.169900	-0.203000	0.945217
2056	0.170200	-0.202000	0.949233
2060	0.170700	-0.205000	0.952700
2055	0.170900	-0.203000	0.957617
2056	0.171500	-0.206000	0.961117
2061	0.172000	-0.203000	0.964550
2064	0.172200	-0.206000	0.968033
2064	0.172500	-0.199000	0.971467
2072	0.173000	-0.201000	0.975483
2068	0.173200	-0.201000	0.978950
2063	0.173500	-0.203000	0.982383
2073	0.174000	-0.201000	0.985867
2072	0.174500	-0.201000	0.989300
2076	0.174800	-0.203000	0.993300
2067	0.175000	-0.204000	0.996783
2077	0.175500	-0.203000	1.000800
2075	0.175800	-0.204000	1.004283
2077	0.176300	-0.205000	1.008267
2080	0.176500	-0.206000	1.011867
2079	0.177000	-0.203000	1.015317
2083	0.177300	-0.204000	1.018800
2079	0.177500	-0.204000	1.022233
2081	0.178100	-0.204000	1.026250
2089	0.178300	-0.204000	1.029717
2082	0.178800	-0.203000	1.033167
2082	0.179100	-0.202000	1.036633
2076	0.179300	-0.206000	1.040067
2101	0.179800	-0.199000	1.044067
2092	0.180100	-0.201000	1.048267
2098	0.180600	-0.201000	1.051700
2090	0.180800	-0.202000	1.055133
2097	0.181400	-0.204000	1.059167
2099	0.181600	-0.201000	1.062617
2093	0.181900	-0.204000	1.066067
2093	0.182400	-0.205000	1.069517
2099	0.182600	-0.203000	1.072950
2106	0.183100	-0.201000	1.076950
2106	0.183400	-0.200000	1.080433
2100	0.183600	-0.205000	1.083867
2110	0.184200	-0.202000	1.087317
2099	0.184400	-0.204000	1.090750
2106	0.184900	-0.202000	1.094767
2108	0.185200	-0.203000	1.098217
2108	0.185700	-0.203000	1.101683
2110	0.185900	-0.203000	1.105117
2107	0.186200	-0.206000	1.109167
2118	0.186700	-0.196000	1.112600
2110	0.186900	-0.203000	1.116033
2117	0.187500	-0.202000	1.119517
2118	0.187700	-0.203000	1.122950
2112	0.188000	-0.205000	1.127000
2112	0.188500	-0.206000	1.130483
2116	0.188700	-0.204000	1.133967
2121	0.189200	-0.205000	1.137483
2121	0.189500	-0.202000	1.141067
2128	0.190000	-0.199000	1.145183
2124	0.190200	-0.200000	1.149233
2132	0.190500	-0.200000	1.152717
2117	0.191000	-0.203000	1.156183
2124	0.191300	-0.202000	1.161133
2123	0.191800	-0.204000	1.164617
2126	0.192300	-0.203000	1.168133
2126	0.192500	-0.204000	1.171617
2137	0.192800	-0.200000	1.175100
2132	0.193300	-0.200000	1.180017
2135	0.193800	-0.208000	1.183500
2122	0.194100	-0.204000	1.186967
2129	0.194300	-0.204000	1.190433
2141	0.195100	-0.203000	1.195483
2143	0.195300	-0.198000	1.198950
2138	0.195600	-0.205000	1.202400
2141	0.196100	-0.203000	1.205867
2138	0.196300	-0.203000	1.211017
2133	0.196900	-0.205000	1.214500
2125	0.197100	-0.206000	1.217950
2149	0.197600	-0.203000	1.221417
2140	0.197900	-0.206000	1.224900
2142	0.198400	-0.202000	1.230000
2142	0.198600	-0.204000	1.233500
2147	0.199100	-0.203000	1.236950
2144	0.199400	-0.205000	1.240417
2145	0.199900	-0.205000	1.245533
2148	0.200400	-0.202000	1.249533
2152	0.200700	-0.201000	1.252983
2156	0.201200	-0.202000	1.256517
2160	0.201400	-0.199000	1.260533
2149	0.201700	-0.203000	1.263983
2148	0.202200	-0.210000	1.267433
2157	0.202400	-0.201000	1.270900
2158	0.202900	-0.203000	1.274350
2154	0.203200	-0.202000	1.278350
2153	0.203700	-0.205000	1.281817
2160	0.204000	-0.203000	1.285267
2157	0.204200	-0.202000	1.288733
2162	0.204700	-0.201000	1.292183
2163	0.205000	-0.199000	1.296183
2162	0.205500	-0.202000	1.299683
2157	0.205700	-0.205000	1.303150
2164	0.206000	-0.203000	1.306583
2167	0.206500	-0.203000	1.310567
2167	0.206800	-0.200000	1.314000
2168	0.207300	-0.203000	1.317450
2170	0.207500	-0.203000	1.320950
2166	0.207800	-0.201000	1.324417
2161	0.208300	-0.208000	1.328450
2163	0.208500	-0.205000	1.331917
2165	0.209000	-0.202000	1.335367
2167	0.209300	-0.201000	1.338833
2179	0.209600	-0.200000	1.342300
2164	0.210100	-0.204000	1.346300
2167	0.210600	-0.201000	1.350367
2171	0.210800	-0.201000	1.353867
2179	0.211100	-0.202000	1.357333
2176	0.211600	-0.203000	1.361333
2162	0.211800	-0.205000	1.364883
2169	0.212300	-0.203000	1.368367
2184	0.212600	-0.203000	1.372083
2178	0.212900	-0.201000	1.375533
2180	0.213400	-0.204000	1.380450
2185	0.213900	-0.198000	1.383933
2178	0.214100	-0.204000	1.387433
2183	0.214600	-0.203000	1.391017
2179	0.214900	-0.205000	1.395967
2183	0.215400	-0.201000	1.399433
2181	0.215600	-0.203000	1.402917
2184	0.216200	-0.203000	1.406533
2185	0.216400	-0.203000	1.410017
2187	0.216900	-0.203000	1.414033
2187	0.217200	-0.200000	1.417517
2189	0.217700	-0.203000	1.421017
2195	0.217900	-0.203000	1.424517
2185	0.218200	-0.201000	1.428567
2187	0.218700	-0.205000	1.432050
2185	0.218900	-0.206000	1.435717
2190	0.219500	-0.200000	1.439200
2191	0.219700	-0.202000	1.442883
2195	0.220200	-0.202000	1.447050
2196	0.220500	-0.200000	1.451217
2198	0.221000	-0.201000	1.454700
2192	0.221200	-0.205000	1.458217
2196	0.221700	-0.201000	1.463050
2197	0.222000	-0.203000	1.466533
2197	0.222500	-0.205000	1.470217
2193	0.222800	-0.204000	1.473700
2204	0.223300	-0.202000	1.477400
2199	0.223500	-0.203000	1.481483
2196	0.223800	-0.205000	1.484983
2199	0.224300	-0.202000	1.488467
2198	0.224500	-0.202000	1.491933
2205	0.225000	-0.202000	1.495383
2191	0.225300	-0.204000	1.499417
2206	0.225800	-0.201000	1.502867
2197	0.226100	-0.209000	1.506533
2202	0.226600	-0.202000	1.510033
2209	0.226800	-0.200000	1.514317
2209	0.227300	-0.201000	1.517917
2208	0.227600	-0.201000	1.521400
2202	0.227800	-0.202000	1.524867
2204	0.228300	-0.204000	1.528533
2209	0.228600	-0.200000	1.532517
2208	0.229100	-0.206000	1.535967
2207	0.229400	-0.201000	1.539433
2200	0.229600	-0.203000	1.542900
2210	0.230100	-0.201000	1.546350
2206	0.230600	-0.203000	1.550900
2209	0.230900	-0.201000	1.554400
2217	0.231100	-0.202000	1.557850
2214	0.231600	-0.199000	1.561317
2202	0.231900	-0.206000	1.565383
2216	0.232400	-0.203000	1.569033
2208	0.232700	-0.204000	1.572483
2218	0.232700	-0.201000	1.575967
2218	0.233200	-0.201000	1.579417
2217	0.233900	-0.205000	1.583433
2210	0.234200	-0.202000	1.586900
2207	0.234400	-0.203000	1.590400
2214	0.235000	-0.202000	1.594033
2211	0.235200	-0.205000	1.597500
2220	0.235500	-0.204000	1.601533
2218	0.236000	-0.206000	1.605000
2221	0.236200	-0.201000	1.608500
2208	0.236700	-0.207000	1.612000
2215	0.237000	-0.202000	1.616050
2218	0.237200	-0.205000	1.619517
2229	0.237700	-0.202000	1.623183
2222	0.238000	-0.203000	1.626667
2218	0.238500	-0.204000	1.630383
2225	0.239000	-0.202000	1.634533
2225	0.239300	-0.202000	1.638000
2219	0.239500	-0.204000	1.641500
2224	0.240000	-0.202000	1.645167
2212	0.240300	-0.204000	1.649800
2226	0.240800	-0.203000	1.653250
2228	0.241000	-0.199000	1.656750
2229	0.241600	-0.205000	1.660250
2228	0.241800	-0.203000	1.663750
2221	0.242100	-0.204000	1.667850
2224	0.242600	-0.203000	1.671333
2227	0.243100	-0.204000	1.674833
2214	0.243300	-0.203000	1.678500
2230	0.243600	-0.206000	1.682000
2235	0.244100	-0.201000	1.686017
2233	0.244300	-0.203000	1.689500
2228	0.244900	-0.204000	1.692933
2236	0.245100	-0.202000	1.696417
2241	0.245400	-0.196000	1.700400
2235	0.245900	-0.204000	1.703850
2228	0.246100	-0.202000	1.707333
2231	0.246600	-0.208000	1.710833
2231	0.246900	-0.205000	1.714333
2233	0.247400	-0.205000	1.718383
2236	0.247700	-0.202000	1.722033
2238	0.247900	-0.200000	1.725533
2238	0.248400	-0.201000	1.729033
2232	0.248700	-0.202000	1.732700
2234	0.249200	-0.202000	1.736833
2230	0.249400	-0.206000	1.740333
2237	0.249900	-0.204000	1.744033
2235	0.250200	-0.201000	1.747550
2234	0.250400	-0.203000	1.751733
2239	0.251000	-0.202000	1.755367
2236	0.251500	-0.203000	1.758883
2232	0.251700	-0.204000	1.762417
2250	0.252000	-0.196000	1.766033
2241	0.252500	-0.203000	1.770083
2232	0.252700	-0.202000	1.773600
2240	0.253200	-0.202000	1.777083
2236	0.253500	-0.206000	1.780567
2232	0.253700	-0.203000	1.784083
2244	0.254300	-0.200000	1.788167
2239	0.254500	-0.203000	1.791683
2245	0.255000	-0.202000	1.795167
2239	0.255300	-0.203000	1.798650
2240	0.255800	-0.199000	1.802917
2246	0.256000	-0.199000	1.806517
2244	0.256500	-0.204000	1.809983
2243	0.256800	-0.200000	1.813683
2241	0.257000	-0.204000	1.817183
2247	0.257800	-0.200000	1.822133
2246	0.258100	-0.204000	1.825583
2247	0.258300	-0.199000	1.829100
2244	0.258800	-0.204000	1.832667
2248	0.259100	-0.204000	1.836700
2247	0.259600	-0.201000	1.840167
2245	0.259800	-0.201000	1.843633
2245	0.260100	-0.202000	1.847667
2247	0.260600	-0.205000	1.851200
2248	0.261100	-0.201000	1.855350
2246	0.261400	-0.207000	1.858800
2240	0.261600	-0.205000	1.862250
2250	0.262100	-0.203000	1.865733
2252	0.262400	-0.203000	1.869233
2251	0.262900	-0.203000	1.873233
2246	0.263100	-0.202000	1.876717
2252	0.263400	-0.201000	1.880350
2253	0.263900	-0.201000	1.883817
2242	0.264200	-0.205000	1.887817
2252	0.264700	-0.200000	1.891283
2247	0.264900	-0.207000	1.894750
2248	0.265200	-0.200000	1.898217
2252	0.265700	-0.202000	1.901667
2255	0.265900	-0.198000	1.905683
2256	0.266400	-0.202000	1.909150
2249	0.266700	-0.202000	1.912617
2250	0.267200	-0.206000	1.916083
2251	0.267500	-0.205000	1.919550
2256	0.268000	-0.204000	1.924483
2250	0.268200	-0.204000	1.927983
2254	0.268700	-0.198000	1.931517
2257	0.269000	-0.202000	1.934983
2248	0.269500	-0.205000	1.939067
2254	0.269700	-0.201000	1.942567
2256	0.270000	-0.204000	1.946083
2252	0.270500	-0.202000	1.949567
2254	0.270800	-0.200000	1.953067
2255	0.271300	-0.203000	1.957100
2252	0.271500	-0.204000	1.960683
2255	0.271800	-0.201000	1.964150
2252	0.272300	-0.207000	1.967850
2257	0.272500	-0.203000	1.971967
2262	0.272800	-0.203000	1.975433
2262	0.273300	-0.202000	1.978917
2249	0.273800	-0.204000	1.982400
2252	0.274100	-0.203000	1.985900
2258	0.274600	-0.204000	1.990117
2252	0.274800	-0.197000	1.993583
2256	0.275100	-0.201000	1.997067
2258	0.275600	-0.201000	2.000550
2255	0.275800	-0.202000	2.004017
2253	0.276400	-0.206000	2.008267
2261	0.276600	-0.204000	2.011867
2255	0.277100	-0.201000	2.015383
2267	0.277400	-0.204000	2.019050
2259	0.277900	-0.200000	2.023117
2252	0.278100	-0.202000	2.026633
2266	0.278600	-0.202000	2.030350
2255	0.278900	-0.203000	2.033850
2257	0.279100	-0.200000	2.037350
2259	0.279700	-0.204000	2.041617
2248	0.279900	-0.206000	2.045450
2267	0.280400	-0.204000	2.049550
2258	0.280900	-0.202000	2.053067
2258	0.281200	-0.205000	2.057183
2248	0.281400	-0.205000	2.060717
2270	0.281900	-0.201000	2.064233
2265	0.282200	-0.201000	2.067833
2267	0.282700	-0.202000	2.071333
2251	0.283000	-0.201000	2.075383
2258	0.283500	-0.200000	2.078883
2261	0.283700	-0.205000	2.082383
2261	0.284000	-0.202000	2.085900
2250	0.284500	-0.204000	2.089400
2254	0.284700	-0.203000	2.093450
2262	0.285000	-0.200000	2.097000
2266	0.285500	-0.205000	2.100517
2261	0.285800	-0.202000	2.103983
2261	0.286300	-0.204000	2.108233
2263	0.286500	-0.201000	2.111817
2252	0.287000	-0.203000	2.115283
2268	0.287300	-0.200000	2.118983
2268	0.287800	-0.202000	2.122450
2260	0.288300	-0.205000	2.126483
2261	0.288300	-0.200000	2.129950
2267	0.288800	-0.202000	2.133450
2270	0.289300	-0.200000	2.136950
2270	0.289600	-0.202000	2.140450
2260	0.289800	-0.199000	2.144483
2261	0.290100	-0.200000	2.148150
2262	0.290600	-0.201000	2.151617
2267	0.291100	-0.204000	2.155300
2242	0.291300	-0.211000	2.160217
2265	0.291800	-0.206000	2.163700
2258	0.292100	-0.204000	2.167200
2260	0.292600	-0.205000	2.170700
2269	0.292900	-0.204000	2.174300
2270	0.293400	-0.203000	2.178400
2268	0.293600	-0.199000	2.181883
2268	0.294100	-0.203000	2.185383
2270	0.294400	-0.199000	2.188867
2260	0.294600	-0.205000	2.192883
2268	0.295100	-0.202000	2.196383
2264	0.295400	-0.205000	2.199883
2268	0.295900	-0.206000	2.203467
2269	0.296200	-0.197000	2.206967
2262	0.296700	-0.205000	2.211217
2271	0.296900	-0.202000	2.214817
2263	0.297200	-0.202000	2.218300
2262	0.297700	-0.205000	2.222000
2266	0.297900	-0.204000	2.225467
2270	0.298500	-0.201000	2.229500
2265	0.298700	-0.202000	2.232967
2254	0.299200	-0.207000	2.236467
2253	0.299500	-0.204000	2.239950
2263	0.299700	-0.200000	2.244000
2269	0.300200	-0.201000	2.248150
2270	0.300700	-0.201000	2.251633
2275	0.301000	-0.201000	2.255333
2268	0.301500	-0.201000	2.258800
2261	0.301500	-0.204000	2.262817
2262	0.302000	-0.206000	2.266300
2265	0.302500	-0.206000	2.269800
2252	0.302800	-0.207000	2.273283
2273	0.303300	-0.200000	2.276783
2270	0.303500	-0.203000	2.280833
2261	0.303800	-0.205000	2.284500
2267	0.304300	-0.201000	2.287967
2268	0.304500	-0.203000	2.291450
2257	0.305100	-0.203000	2.295683
2268	0.305300	-0.202000	2.299333
2270	0.305800	-0.201000	2.302850
2267	0.306100	-0.204000	2.306483
2272	0.306600	-0.201000	2.310000
2265	0.306800	-0.202000	2.314083
2269	0.307300	-0.201000	2.317817
2268	0.307600	-0.203000	2.321333
2260	0.307800	-0.203000	2.324867
2268	0.308400	-0.201000	2.328517
2272	0.308900	-0.203000	2.332633
2267	0.309100	-0.204000	2.336150
2267	0.309400	-0.201000	2.339833
2267	0.309900	-0.203000	2.343350
2266	0.310100	-0.202000	2.347583
2270	0.310600	-0.200000	2.351150
2261	0.310600	-0.197000	2.354683
2270	0.311400	-0.202000	2.358217
2266	0.311700	-0.201000	2.361833
2263	0.312200	-0.206000	2.365883
2256	0.312400	-0.204000	2.369367
2263	0.312700	-0.203000	2.372867
2266	0.313200	-0.203000	2.376350
2254	0.313400	-0.204000	2.379867
2258	0.313900	-0.206000	2.383933
2275	0.314200	-0.198000	2.387467
2274	0.314700	-0.201000	2.390950
2277	0.315000	-0.200000	2.394433
2260	0.315200	-0.205000	2.398733
2264	0.315700	-0.202000	2.402283
2266	0.316000	-0.202000	2.405767
2266	0.316500	-0.205000	2.409250
2263	0.316700	-0.201000	2.412717
2262	0.317200	-0.203000	2.416767
2252	0.317500	-0.203000	2.420267
2260	0.318000	-0.202000	2.423767
2271	0.318300	-0.201000	2.427317
2275	0.318500	-0.197000	2.430800
2256	0.319000	-0.207000	2.434800
2264	0.319300	-0.206000	2.438283
2268	0.319800	-0.203000	2.441750
2261	0.320000	-0.204000	2.445233
2260	0.320300	-0.200000	2.449833
2258	0.320800	-0.203000	2.453467
2268	0.321300	-0.201000	2.456950
2253	0.321600	-0.204000	2.460633
2260	0.321800	-0.201000	2.464117
2262	0.322300	-0.206000	2.468200
2265	0.322600	-0.204000	2.471683
2251	0.323100	-0.206000	2.475150
2254	0.323300	-0.208000	2.478633
2254	0.323600	-0.200000	2.482133
2267	0.324100	-0.204000	2.486150
2266	0.324600	-0.204000	2.489817
2263	0.324900	-0.198000	2.493300
2248	0.325100	-0.202000	2.497000
2251	0.325600	-0.202000	2.501117
2259	0.326100	-0.201000	2.504633
2260	0.326400	-0.202000	2.508133
2254	0.326600	-0.202000	2.511800
2259	0.327200	-0.205000	2.515300
2256	0.327400	-0.204000	2.519517
2265	0.327900	-0.203000	2.523150
2249	0.328200	-0.203000	2.526633
2252	0.328400	-0.203000	2.530333
2256	0.328900	-0.202000	2.533817
2253	0.329200	-0.201000	2.537833
2250	0.329700	-0.204000	2.541317
2252	0.329900	-0.206000	2.544800
2253	0.330200	-0.200000	2.548300
2256	0.330700	-0.202000	2.552350
2259	0.331200	-0.201000	2.555850
2258	0.331500	-0.200000	2.559483
2251	0.331700	-0.201000	2.562967
2251	0.332200	-0.207000	2.566467
2252	0.332700	-0.204000	2.570733
2252	0.333000	-0.204000	2.574317
2249	0.333200	-0.202000	2.577800
2252	0.333800	-0.204000	2.581483
2254	0.334000	-0.201000	2.584983
2252	0.334500	-0.202000	2.589050
2249	0.334800	-0.202000	2.592583
2246	0.335000	-0.202000	2.596133
2250	0.335500	-0.201000	2.599667
2241	0.335800	-0.203000	2.603767
2242	0.336300	-0.206000	2.607317
2242	0.336600	-0.205000	2.610883
2244	0.336800	-0.203000	2.614433
2247	0.337300	-0.201000	2.618000
2246	0.337800	-0.201000	2.622100
2242	0.338100	-0.206000	2.625667
2238	0.338300	-0.203000	2.629233
2239	0.338800	-0.205000	2.632800
2240	0.339100	-0.204000	2.636350
2240	0.339600	-0.203000	2.640450
2236	0.339900	-0.203000	2.643983
2242	0.340400	-0.200000	2.648133
2239	0.340600	-0.199000	2.651633
2243	0.341100	-0.200000	2.655900
2232	0.341400	-0.204000	2.659483
2238	0.341900	-0.203000	2.663000
2230	0.342100	-0.204000	2.666533
2235	0.342600	-0.201000	2.670150
2228	0.342900	-0.204000	2.674250
2229	0.343400	-0.203000	2.677767
2230	0.343700	-0.204000	2.681483
2232	0.343900	-0.201000	2.684983
2230	0.344400	-0.203000	2.688633
2230	0.344900	-0.202000	2.692800
2233	0.345200	-0.198000	2.696300
2217	0.345700	-0.207000	2.699783
2223	0.345900	-0.204000	2.703450
2210	0.346200	-0.206000	2.707467
2228	0.346700	-0.203000	2.710967
2228	0.347000	-0.200000	2.714483
2223	0.347200	-0.199000	2.717967
2216	0.347700	-0.201000	2.721450
2211	0.348000	-0.200000	2.725467
2221	0.348200	-0.201000	2.728950
2223	0.348700	-0.203000	2.732650
2212	0.349300	-0.205000	2.736167
2208	0.349500	-0.200000	2.739800
2209	0.350000	-0.203000	2.743967
2216	0.350300	-0.202000	2.747467
2201	0.350500	-0.199000	2.751150
2210	0.351000	-0.202000	2.754650
2208	0.351300	-0.202000	2.758683
2208	0.351800	-0.206000	2.762183
2208	0.352000	-0.199000	2.765700
2209	0.352600	-0.203000	2.769200
2200	0.352800	-0.206000	2.772717
2205	0.353300	-0.203000	2.776783
2196	0.353600	-0.206000	2.780317
2198	0.353800	-0.200000	2.783800
2202	0.354300	-0.200000	2.787300
2192	0.354600	-0.202000	2.790983
2194	0.355100	-0.202000	2.795117
2196	0.355300	-0.203000	2.798617
2192	0.355900	-0.202000	2.802333
2187	0.356100	-0.205000	2.805867
2189	0.356600	-0.203000	2.810067
2182	0.356900	-0.206000	2.813667
2179	0.357100	-0.204000	2.817200
2182	0.357600	-0.202000	2.820717
2178	0.357900	-0.202000	2.824300
2169	0.358400	-0.203000	2.828333
2170	0.358600	-0.204000	2.831867
2180	0.359200	-0.200000	2.835383
2163	0.359400	-0.204000	2.838883
2171	0.359900	-0.201000	2.842400
2171	0.360200	-0.201000	2.847067
2169	0.360700	-0.204000	2.850567
2157	0.360900	-0.205000	2.854067
2158	0.361400	-0.202000	2.857650
2159	0.361700	-0.203000	2.862617
2157	0.362200	-0.205000	2.866117
2152	0.362500	-0.199000	2.869617
2157	0.363000	-0.199000	2.873133
2154	0.363200	-0.202000	2.876617
2151	0.363700	-0.202000	2.881550
2135	0.364000	-0.206000	2.885100
2143	0.364500	-0.201000	2.888667
2135	0.364700	-0.206000	2.892217
2124	0.365300	-0.203000	2.897217
2124	0.365500	-0.204000	2.900767
2136	0.366000	-0.200000	2.904317
2120	0.366300	-0.199000	2.907883
2121	0.366800	-0.201000	2.912000
2120	0.367000	-0.204000	2.915550
2123	0.367500	-0.202000	2.919100
2108	0.367800	-0.204000	2.922650
2109	0.368300	-0.204000	2.926233
2104	0.368600	-0.204000	2.930350
2101	0.368800	-0.201000	2.933933
2102	0.369300	-0.201000	2.937467
2099	0.369600	-0.201000	2.941033
2086	0.370100	-0.201000	2.944550
2088	0.370100	-0.203000	2.948650
2086	0.370800	-0.209000	2.952333
2067	0.371100	-0.205000	2.955850
2075	0.371600	-0.203000	2.959467
2074	0.371900	-0.208000	2.963600
2069	0.372400	-0.206000	2.967133
2069	0.372600	-0.198000	2.970700
2062	0.373100	-0.200000	2.974333
2056	0.373400	-0.201000	2.977850
2046	0.373900	-0.203000	2.982950
2032	0.374100	-0.205000	2.986500
2040	0.374700	-0.201000	2.990017
2028	0.374900	-0.203000	2.993533
2020	0.375200	-0.202000	2.997617
2012	0.375700	-0.201000	3.001133
57	0.385100	-0.209000	3.004667
-94	0.376400	-0.199000	3.009450
-94	0.376900	-0.204000	3.012967
-92	0.377200	-0.203000	3.017050
-93	0.377700	-0.197000	3.020550
-89	0.378000	-0.201000	3.024050
-93	0.378200	-0.203000	3.027550
-95	0.378700	-0.204000	3.031617
-91	0.378700	-0.201000	3.035367
-91	0.378700	-0.200000	3.038867
-91	0.378700	-0.200000	3.042367
-90	0.378700	-0.199000	3.046150
-91	0.378700	-0.202000	3.050133
-90	0.378700	-0.199000	3.055250
-91	0.378700	-0.201000	3.058750
-91	0.378700	-0.200000	3.062250
-91	0.378700	-0.200000	3.066433
-90	0.378700	-0.200000	3.070083
-89	0.378700	-0.199000	3.075100
-91	0.378700	-0.201000	3.078600
-91	0.378700	-0.201000	3.082100
-91	0.378700	-0.198000	3.086150
-91	0.378700	-0.200000	3.089750
-91	0.378700	-0.201000	3.094867
-92	0.378700	-0.199000	3.098367
-91	0.378700	-0.199000	3.102517
-91	0.378700	-0.201000	3.106017
-91	0.378700	-0.202000	3.109517
-92	0.378700	-0.198000	3.114750
-91	0.378700	-0.201000	3.118783
-90	0.378700	-0.199000	3.122283
-90	0.378700	-0.198000	3.125800
-91	0.378700	-0.202000	3.129300
-90	0.378700	-0.201000	3.134417
-91	0.378700	-0.200000	3.138583
-91	0.378700	-0.200000	3.142100
-91	0.378700	-0.197000	3.145600
-91	0.378700	-0.197000	3.149250
-91	0.378700	-0.197000	3.154767
-91	0.378700	-0.200000	3.158267
-90	0.378700	-0.201000	3.161800
-90	0.378700	-0.200000	3.165300
-91	0.378700	-0.199000	3.168917
-92	0.378700	-0.200000	3.174600
-92	0.378700	-0.201000	3.178150
-91	0.378700	-0.200000	3.181700
-90	0.378700	-0.199000	3.185250
-92	0.378700	-0.200000	3.191150
-91	0.378700	-0.201000	3.194700
-90	0.378700	-0.203000	3.198267
-91	0.378700	-0.200000	3.201800
-91	0.378700	-0.199000	3.205917
-91	0.378700	-0.198000	3.210967
-91	0.378700	-0.199000	3.214517
-91	0.378700	-0.201000	3.218067
-92	0.378700	-0.202000	3.221600
-92	0.378700	-0.200000	3.225700
-92	0.378700	-0.199000	3.230600
-91	0.378700	-0.199000	3.234150
-91	0.378700	-0.202000	3.237667
-92	0.378700	-0.199000	3.241700
-91	0.378700	-0.200000	3.245233
-91	0.378700	-0.202000	3.250383
-91	0.378700	-0.202000	3.253900
-91	0.378700	-0.197000	3.258150
-89	0.378700	-0.202000	3.261783
-91	0.378700	-0.200000	3.265317
-92	0.378700	-0.202000	3.270383
-91	0.378700	-0.201000	3.273917
-92	0.378700	-0.200000	3.277983
-91	0.378700	-0.200000	3.281517
-90	0.378700	-0.200000	3.285017
-91	0.378700	-0.202000	3.290083
-91	0.378700	-0.200000	3.294167
-91	0.378700	-0.202000	3.297667
-91	0.378700	-0.199000	3.301167
-92	0.378700	-0.201000	3.304667
-91	0.378700	-0.200000	3.310250
-92	0.378700	-0.201000	3.313750
-91	0.378700	-0.200000	3.317250
-92	0.378700	-0.201000	3.320750
-91	0.378700	-0.199000	3.324250
-91	0.378700	-0.201000	3.329717
-91	0.378700	-0.201000	3.333217
-91	0.378700	-0.199000	3.336750
-90	0.378700	-0.200000	3.340250
-91	0.378700	-0.200000	3.344433
-91	0.378700	-0.200000	3.349533
-91	0.378700	-0.200000	3.353033
-91	0.378700	-0.203000	3.356533
-91	0.378700	-0.200000	3.360033
-92	0.378700	-0.202000	3.364067
-91	0.378700	-0.197000	3.369167
-91	0.378700	-0.200000	3.372667
-91	0.378700	-0.199000	3.376167
-91	0.378700	-0.201000	3.380267
-91	0.378700	-0.201000	3.383783
-91	0.378700	-0.200000	3.388967
-91	0.378700	-0.199000	3.392483
-90	0.378700	-0.199000	3.396517
-92	0.378700	-0.199000	3.400017
-91	0.378700	-0.200000	3.403517
-90	0.378700	-0.200000	3.408583
-91	0.378700	-0.202000	3.412083
-91	0.378700	-0.200000	3.416183
-91	0.378700	-0.202000	3.419683
-91	0.378700	-0.200000	3.423183
-91	0.378700	-0.200000	3.428233
-91	0.378700	-0.200000	3.432267
-91	0.378700	-0.201000	3.435783
-92	0.378700	-0.200000	3.439283
-91	0.378700	-0.199000	3.442783
-91	0.378700	-0.200000	3.448583
-92	0.378700	-0.200000	3.452267
-91	0.378700	-0.201000	3.455767
-91	0.378700	-0.201000	3.459433
-91	0.378700	-0.201000	3.462967
-91	0.378700	-0.198000	3.468383
-92	0.378700	-0.199000	3.471933
-92	0.378700	-0.203000	3.475483
-91	0.378700	-0.202000	3.479033
-91	0.378700	-0.201000	3.483167
-91	0.378700	-0.201000	3.488583
-91	0.378700	-0.200000	3.492133
-90	0.378700	-0.201000	3.495683
-91	0.378700	-0.202000	3.499817
-91	0.378700	-0.202000	3.503433
-91	0.378700	-0.201000	3.508467
-91	0.378700	-0.200000	3.512033
-91	0.378700	-0.200000	3.515550
-91	0.378700	-0.203000	3.519633
-92	0.378700	-0.200000	3.523150
-91	0.378700	-0.201000	3.528017
-91	0.378700	-0.201000	3.531567
-91	0.378700	-0.199000	3.535650
-91	0.378700	-0.201000	3.539183
-91	0.378700	-0.200000	3.542733
-92	0.378700	-0.200000	3.547867
-92	0.378700	-0.199000	3.551950
-91	0.378700	-0.201000	3.555467
-92	0.378700	-0.201000	3.558983
-92	0.378700	-0.199000	3.562517
-90	0.378700	-0.199000	3.567733
-91	0.378700	-0.202000	3.571883
-91	0.378700	-0.199000	3.575383
-91	0.378700	-0.200000	3.578883
-91	0.378700	-0.199000	3.582550
-91	0.378700	-0.200000	3.588117
-91	0.378700	-0.200000	3.591617
-91	0.378700	-0.202000	3.595133
-91	0.378700	-0.199000	3.598650
-91	0.378700	-0.200000	3.602217
-91	0.378700	-0.202000	3.607683
-92	0.378700	-0.199000	3.611183
-91	0.378700	-0.200000	3.614717
-91	0.378700	-0.202000	3.618233
-91	0.378700	-0.200000	3.622267
-92	0.378700	-0.201000	3.627117
-91	0.378700	-0.199000	3.630633
-91	0.378700	-0.201000	3.634133
-91	0.378700	-0.202000	3.638150
-91	0.378700	-0.201000	3.641667
-91	0.378700	-0.201000	3.646900
-92	0.378700	-0.200000	3.650400
-91	0.378700	-0.200000	3.653900
-91	0.378700	-0.199000	3.658083
-92	0.378700	-0.200000	3.661733
-91	0.378700	-0.202000	3.665233
-91	0.378700	-0.198000	3.668917
-92	0.378700	-0.201000	3.674617
-91	0.378700	-0.200000	3.678117
-91	0.378700	-0.201000	3.681617
-91	0.378700	-0.201000	3.685117
-92	0.378700	-0.200000	3.688617
-91	0.378700	-0.200000	3.694133
-92	0.378700	-0.201000	3.697650
-92	0.378700	-0.199000	3.701167
-91	0.378700	-0.200000	3.704667
-92	0.378700	-0.200000	3.708717
-92	0.378700	-0.200000	3.713150
-91	0.378700	-0.200000	3.716650
-90	0.378700	-0.202000	3.720150
-91	0.378700	-0.200000	3.724200
-91	0.378700	-0.202000	3.727717
-91	0.378700	-0.200000	3.731717
-92	0.378700	-0.201000	3.735233
-92	0.378700	-0.202000	3.738750
-92	0.378700	-0.199000	3.742800
-91	0.378700	-0.199000	3.746333
-91	0.378700	-0.201000	3.751317
-92	0.378700	-0.202000	3.754833
-90	0.378700	-0.199000	3.758967
-91	0.378700	-0.198000	3.762550
-92	0.378700	-0.200000	3.766117
-91	0.378700	-0.199000	3.771183
-91	0.378700	-0.200000	3.774733
-92	0.378700	-0.200000	3.779017
-90	0.378700	-0.201000	3.782617
-91	0.378700	-0.200000	3.786183
-91	0.378700	-0.200000	3.789767
-92	0.378700	-0.201000	3.793900
-91	0.378700	-0.200000	3.797467
-91	0.378700	-0.201000	3.801083
-91	0.378700	-0.202000	3.804667
-91	0.378700	-0.201000	3.808183
-92	0.378700	-0.201000	3.813633
-91	0.378700	-0.200000	3.817200
-91	0.378700	-0.200000	3.820733
-92	0.378700	-0.200000	3.824250
-91	0.378700	-0.199000	3.828317
-91	0.378700	-0.201000	3.832550
-92	0.378700	-0.200000	3.836117
-91	0.378700	-0.201000	3.839767
-91	0.378700	-0.199000	3.843317
-91	0.378700	-0.198000	3.848050
-91	0.378700	-0.201000	3.851550
-92	0.378700	-0.201000	3.855250
-91	0.378700	-0.204000	3.858817
-91	0.378700	-0.203000	3.862900
-91	0.378700	-0.200000	3.866450
-91	0.378700	-0.202000	3.870117
-92	0.378700	-0.199000	3.873633
-91	0.378700	-0.199000	3.879133
-91	0.378700	-0.201000	3.882650
-91	0.378700	-0.202000	3.886183
-91	0.378700	-0.201000	3.889700
-91	0.378700	-0.202000	3.893217
-90	0.378700	-0.202000	3.898733
-92	0.378700	-0.200000	3.902267
-92	0.378700	-0.198000	3.905783
-90	0.378700	-0.200000	3.909383
-91	0.378700	-0.202000	3.912900
-91	0.378700	-0.199000	3.918267
-91	0.378700	-0.201000	3.921883
-90	0.378700	-0.202000	3.924233